<?xml version="1.0" encoding="UTF-8"?>
<Bundle xmlns="http://hl7.org/fhir">
  <id value="9309d080-4e97-11e9-8647-d663bd873d93"/>

  <meta>
    <lastUpdated value="2014-08-18T01:43:33Z"/>
  </meta>
  <identifier>
    <system value="https://tools.ietf.org/html/rfc4122"/>
    <value value="4989a6a4-4e99-11e9-8647-d663bd873d93"/>
  </identifier>
  <type value="collection"/>
  <entry>
    <fullUrl value="urn:uuid:e229b450-4e9c-11e9-8647-d663bd873d93"/>
    <resource>
      <List>
        <id value="e229b450-4e9c-11e9-8647-d663bd873d93"/>
        <meta>
          <profile value="http://hl7.org.au/fhir/StructureDefinition/au-medlist"/>
        </meta>
        <text>
          <status value="extensions"/>
          <div xmlns="http://www.w3.org/1999/xhtml">
            <h1>Current Medication on Discharge</h1>

            <h2>Patient</h2>
            <table>
              <tbody>
                <tr>
                  <th>Name</th>
                  <td>Mr Nicholas Jones </td>
                </tr>
                <tr>
                  <th>DoB</th>
                  <td>8 January 1949 (70)</td>
                </tr>
                <tr>
                  <th>Gender</th>
                  <td>Male</td>
                </tr>
                <tr>
                  <th>Indigenous status</th>
                  <td>Neither Aboriginal nor Torres Strait Islander origin</td>
                </tr>
                <tr>
                  <th>IHI</th>
                  <td>8003608833357361</td>
                </tr>
                <tr>
                  <th>Address</th>
                  <td>4 Brisbane Street, Brisbane, QLD 4112, Australia</td>
                </tr>
              </tbody>
            </table>

            <h2>Provider details</h2>
            <table>
              <tbody>
                <tr>
                  <th>Hospital name</th>
                  <td>Downunder Hospital</td>
                </tr>
                <tr>
                  <th>Hospital address</th>
                  <td>3 McGregor Street, Blacktown, NSW 2148, Australia</td>
                </tr>
                <tr>
                  <th>Telephone number</th>
                  <td>(02)5550 3333</td>
                </tr>
                <tr>
                  <th>Doctor</th>
                  <td>Dr Helen Mayo, Cardiologist</td>
                </tr>
                <tr>
                  <th>HPI-I</th>
                  <td>8003619900015717</td>
                </tr>
                <tr>
                  <th>Prescriber Number</th>
                  <td>453221</td>
                </tr>
              </tbody>
            </table>

            <h2>Current Medicines List on Discharge at 19/03/2019</h2>
            <table border="1">
              <thead>
                <tr>
                  <th>Medicine</th>
                  <th>Brand name</th>
                  <th>Directions</th>
                  <th>Morn</th>
                  <th>Mid</th>
                  <th>Eve</th>
                  <th>Bed</th>
                  <th>Medicine purpose</th>
                  <th>Special instructions</th>
                </tr>
              </thead>
              <tbody>
                <tr>
                  <td>FLUOXETINE 20mg TABLETS</td>
                  <td>LOVAN, PROZAC, ZACTIN</td>
                  <td>Take HALF a tablet dispersed in water in the MORNING.</td>
                  <td>0.5</td>
                  <td/>
                  <td/>
                  <td/>
                  <td>For depression.</td>
                  <td/>
                </tr>
                <tr>
                  <td>ASPIRIN 100mg EC TABLET</td>
                  <td>CARTIA</td>
                  <td>Swallow whole ONE tablet in the MORNING WITH FOOD.</td>
                  <td>1</td>
                  <td/>
                  <td/>
                  <td/>
                  <td>To thin the blood to prevent heart attack or stroke.</td>
                  <td>Swallow whole after food. If develop swollen ankles, difficulty in breathing,
                    black stools or vomit that looks like coffee grounds, stop taking the medicine
                    and contact the doctor without delay. It may be advisable to stop taking aspirin
                    7 days before planed surgery and some dental procedure; discuss with your doctor
                    or dentist.</td>
                </tr>
                <tr>
                  <td>TICAGRELOR 90mg TABLETS</td>
                  <td>BRILINTA</td>
                  <td>Take ONE tablet TWICE a day.</td>
                  <td>1</td>
                  <td/>
                  <td/>
                  <td>1</td>
                  <td>For angina or to keep the blood thin.</td>
                  <td>Do not take more than one aspirin tablet or capsule each day while being
                    treated with this medicine.</td>
                </tr>
                <tr>
                  <td>OMEGA-3-ACID ETHYL ESTERS 1000mg CAPSULES</td>
                  <td>OMACOR</td>
                  <td>Take ONE capsule at NIGHT.</td>
                  <td/>
                  <td/>
                  <td/>
                  <td>1</td>
                  <td/>
                  <td/>
                </tr>
                <tr>
                  <td>NIFEDIPINE 30mg CONTROLLED RELEASE TABLETS</td>
                  <td>ADEFIN XL 30, ADALAT OROS, ADEFIN OROS, ADDOS XR 30, APO-NIFEDIPINE XR</td>
                  <td>Swallow whole ONE tablet at NIGHT.</td>
                  <td/>
                  <td/>
                  <td/>
                  <td>1</td>
                  <td/>
                  <td>Swallow whole with a glass of fluid, do not crush or chew the tablets. Take
                    regularly and do not miss doses. Do not stop taking suddenly unless advised by
                    your doctor. This medicine may affect mental alertness and/or operate machinery.
                    If affected do not drive or operate machinery. Avoid eating grapefruit or
                    drinking grapefruit juice while being treated with this medicine.</td>
                </tr>
                <tr>
                  <td>GLYCERIL TRINITRATE 600mcg (30) SUBLINGUAL TABLETS</td>
                  <td>ANGININE</td>
                  <td>Place ONE tablet under the tongue and allow to dissolve when needed for chest
                    pain. DISCARD CONTENTS THREE MONTHS AFTER OPENING.</td>
                  <td>When necessary.</td>
                  <td/>
                  <td/>
                  <td/>
                  <td>To relieve chest pain associated with angina.</td>
                  <td>Sit or lie down before use as it may cause dizziness. Get up gradually from
                    sitting or lying to minimise this effect. Place half to one tablet under the
                    tongue. Do not swallow it. After the pain has been relieved, spit out what is
                    left of the tablet to avoid adverse effects such as headache. It is important to
                    store these tablets properly or they may not work as well. Keep them in the
                    original glass bottle away from moisture, heat and light. Do not carry them
                    close to your body. Write the date on the bottle when you open it and discard
                    any unused tablets 3 months later (after that time, they will not be reliably
                    effective).</td>
                </tr>
                <tr>
                  <td>ATORVASTATIN 80mg TABLETS</td>
                  <td>APO-ATORVASTATIN, LIPITOR, LORSTAT</td>
                  <td>Take ONE tablet at NIGHT.</td>
                  <td/>
                  <td/>
                  <td/>
                  <td>1</td>
                  <td>To lower cholesterol levels in the blood.</td>
                  <td>Avoid eating grapefruit or drinking grapefruit juice while being treated with
                    this medicine as this could increase the chances of side-effects occurring. Seek
                    medical advice promptly if your urine is dark (brown) or you have any muscle
                    pain, tenderness or weakness.</td>
                </tr>
                <tr>
                  <td>METOPROLOL 50mg TABLETS</td>
                  <td>MINAX 50, BETALOC</td>
                  <td>Take ONE tablet TWICE a day (Relabelled Medication).</td>
                  <td>1</td>
                  <td/>
                  <td/>
                  <td>1</td>
                  <td>For reducing blood pressure, angina or disturbances of heart rhythm.</td>
                  <td/>
                </tr>
              </tbody>
            </table>
          </div>
        </text>
        <status value="current"/>
        <mode value="snapshot"/>
        <code>
          <coding>
            <system value="http://loinc.org"/>
            <code value="8654-6"/>
          </coding>
          <text value="Current Medicine on Discharge"/>
        </code>
        <subject>
          <reference value="urn:uuid:f12d073e-4e99-11e9-8647-d663bd873d93"/>
        </subject>
        <date value="2019-03-19"/>
        <entry>
          <item>
            <reference value="urn:uuid:e36cef42-4ea3-11e9-8647-d663bd873d93"/>
          </item>
        </entry>
        <entry>
          <item>
            <reference value="urn:uuid:fbc87b14-4ea4-11e9-8647-d663bd873d93"/>
          </item>
        </entry>
        <entry>
          <item>
            <reference value="urn:uuid:9b6194f8-4ea5-11e9-8647-d663bd873d93"/>
          </item>
        </entry>
        <entry>
          <item>
            <reference value="urn:uuid:cede882c-4ea5-11e9-8647-d663bd873d93"/>
          </item>
        </entry>
        <entry>
          <item>
            <reference value="urn:uuid:f0a81ae0-4ea5-11e9-8647-d663bd873d93"/>
          </item>
        </entry>
        <entry>
          <item>
            <reference value="urn:uuid:2450a7ea-4ea6-11e9-8647-d663bd873d93"/>
          </item>
        </entry>
        <entry>
          <item>
            <reference value="urn:uuid:613a96e8-4ea6-11e9-8647-d663bd873d93"/>
          </item>
        </entry>
        <entry>
          <item>
            <reference value="urn:uuid:91296398-4ea6-11e9-8647-d663bd873d93"/>
          </item>
        </entry>
      </List>
    </resource>
  </entry>
  <entry>
    <fullUrl value="urn:uuid:f12d073e-4e99-11e9-8647-d663bd873d93"/>
    <resource>
      <Patient xmlns="http://hl7.org/fhir">
        <id value="f12d073e-4e99-11e9-8647-d663bd873d93"/>
        <text>
          <status value="generated"/>
          <div xmlns="http://www.w3.org/1999/xhtml">
            <p>
              <b>Generated Narrative with Details</b>
            </p>
            <p><b>id</b>: f12d073e-4e99-11e9-8647-d663bd873d93</p>
            <p><b>meta</b>: </p>
            <p><b>identifier</b>: IHI = 8003608833357361</p>
            <p><b>name</b>: Nicholas Jones </p>
            <p><b>telecom</b>: nick.jones@amail.example.com(HOME), ph: (0491) 570 006(MOBILE)</p>
            <p><b>gender</b>: male</p>
            <p><b>birthDate</b>: 08/01/1949</p>
            <p><b>address</b>: 4 Brisbane Street Brisbane QLD 4112 Australia (HOME)</p>
          </div>
        </text>
        <extension url="http://hl7.org.au/fhir/StructureDefinition/indigenous-status">
          <valueCoding>
            <system
              value="https://healthterminologies.gov.au/fhir/CodeSystem/australian-indigenous-status-1"/>
            <code value="4"/>
            <display value="Neither Aboriginal nor Torres Strait Islander origin"/>
          </valueCoding>
        </extension>
        <identifier>
          <extension url="http://hl7.org.au/fhir/StructureDefinition/ihi-status">
            <valueCoding>
              <system value="https://healthterminologies.gov.au/fhir/CodeSystem/ihi-status-1"/>
              <code value="active"/>
              <display value="active"/>
            </valueCoding>
          </extension>
          <extension url="http://hl7.org.au/fhir/StructureDefinition/ihi-record-status">
            <valueCoding>
              <system value="https://healthterminologies.gov.au/fhir/CodeSystem/ihi-record-status-1"/>
              <code value="Verified"/>
              <display value="Verified"/>
            </valueCoding>
          </extension>
          <type>
            <coding>
              <system value="http://terminology.hl7.org/CodeSystem/v2-0203"/>
              <code value="NI"/>
              <display value="National unique individual identifier"/>
            </coding>
          </type>
          <system value="http://ns.electronichealth.net.au/id/hi/ihi/1.0"/>
          <value value="8003608833357361"/>
        </identifier>
        <name>
          <family value="Jones"/>
          <given value="Nicholas"/>
          <prefix value="Mr"/>
        </name>
        <telecom>
          <system value="email"/>
          <value value="nick.jones@amail.example.com"/>
          <use value="home"/>
        </telecom>
        <telecom>
          <system value="phone"/>
          <value value="(0491) 570 006"/>
          <use value="mobile"/>
        </telecom>
        <gender value="male"/>
        <birthDate value="1949-01-08"/>
        <address>
          <use value="home"/>
          <line value="4 Brisbane Street"/>
          <city value="Brisbane"/>
          <state value="QLD"/>
          <postalCode value="4112"/>
          <country value="Australia"/>
        </address>
      </Patient>
    </resource>
  </entry>
  <entry>
    <fullUrl value="urn:uuid:9024d4a6-4ea0-11e9-8647-d663bd873d93"/>
    <resource>
      <PractitionerRole>
        <id value="9024d4a6-4ea0-11e9-8647-d663bd873d93"/>
        <text>
          <status value="generated"/>
          <div xmlns="http://www.w3.org/1999/xhtml">
            <p>
              <b>Generated Narrative with Details</b>
            </p>
            <p><b>id</b>: 9024d4a6-4ea0-11e9-8647-d663bd873d93</p>
            <p><b>identifier</b>: Medicare Provider Number = 2426621B</p>
            <p><b>active</b>: true</p>
            <p><b>practitioner</b>: <a href="Practitioner-example0.html">Generated Summary: id:
              example0; HPI-I = 8003619900015717, Prescriber Number = 453221; active; Helen Mayo ;
                helen.mayo@downunderhospital.example.com(WORK)</a></p>
            <p><b>organization</b>: <a href="Organization-example0.html">Generated Summary: id:
              example0; HPI-O = 8003621566684455; active; name: Downunder Hospital;
                helen.mayo@downunderhospital.exanple.com(WORK)</a></p>
            <p><b>specialty</b>: Cardiologist <span style="background: LightGoldenRodYellow"
                >(Details : {SNOMED CT code '17561000' = 'Cardiologist', given as
                'Cardiologist'})</span></p>
            <p><b>location</b>: <a href="Location-example0.html">Generated Summary: id: example0;
                status: active; name: Downunder Hospital Blacktown; ph: 025553555(WORK)</a></p>
            <p><b>telecom</b>: ph: 0255503333(WORK)</p>
          </div>
        </text>
        <identifier>
          <type>
            <coding>
              <system value="http://terminology.hl7.org.au/CodeSystem/v2-0203"/>
              <code value="UPIN"/>
            </coding>
          </type>
          <system value="http://ns.electronichealth.net.au/id/provider-number"/>
          <value value="2426621B"/>
        </identifier>
        <active value="true"/>
        <practitioner>
          <reference value="urn:uuid:9024d118-4ea0-11e9-8647-d663bd873d93"/>
        </practitioner>
        <organization>
          <reference value="urn:uuid:b377cc18-4ea2-11e9-8647-d663bd873d93"/>
        </organization>
        <specialty>
          <coding>
            <system value="http://snomed.info/sct"/>
            <code value="17561000"/>
            <display value="Cardiologist"/>
          </coding>
        </specialty>
        <telecom>
          <system value="phone"/>
          <value value="025553333"/>
          <use value="work"/>
        </telecom>
      </PractitionerRole>
    </resource>
  </entry>
  <entry>
    <fullUrl value="urn:uuid:9024d118-4ea0-11e9-8647-d663bd873d93"/>
    <resource>
      <Practitioner>
        <id value="9024d118-4ea0-11e9-8647-d663bd873d93"/>
        <text>
          <status value="generated"/>
          <div xmlns="http://www.w3.org/1999/xhtml">
            <p>
              <b>Generated Narrative with Details</b>
            </p>
            <p><b>id</b>: 9024d118-4ea0-11e9-8647-d663bd873d93</p>
            <p><b>identifier</b>: HPI-I = 8003619900015717, Prescriber Number = 453221</p>
            <p><b>active</b>: true</p>
            <p><b>name</b>: Helen Mayo </p>
            <p><b>telecom</b>: helen.mayo@downunderhospital.example.com(WORK)</p>
            <p><b>address</b>: 3 McGregor Street Blacktown NSW 2148 Australia (WORK)</p>
            <h3>Qualifications</h3>
            <table class="grid">
              <tr>
                <td>-</td>
                <td>
                  <b>Identifier</b>
                </td>
                <td>
                  <b>Code</b>
                </td>
                <td>
                  <b>Issuer</b>
                </td>
              </tr>
              <tr>
                <td>*</td>
                <td>AHPRA Registration Number = MED0000932945</td>
                <td>General Practitioner <span style="background: LightGoldenRodYellow">(Details :
                    {http://www.abs.gov.au/ausstats/abs@.nsf/mf/1220.0 code '253111' = '253111',
                    given as 'General Practitioner'})</span></td>
                <td>AHPRA</td>
              </tr>
            </table>
          </div>
        </text>
        <identifier>
          <type>
            <coding>
              <system value="http://terminology.hl7.org/CodeSystem/v2-0203"/>
              <code value="NPI"/>
              <display value="National provider identifier"/>
            </coding>
          </type>
          <system value="http://ns.electronichealth.net.au/id/hi/hpii/1.0"/>
          <value value="8003610833334085"/>
        </identifier>
        <identifier>
          <type>
            <coding>
              <system value="http://terminology.hl7.org.au/CodeSystem/v2-0203"/>
              <code value="PRES"/>
              <display value="Prescriber Number"/>
            </coding>
          </type>
          <system value="http://ns.electronichealth.net.au/id/medicare-prescriber-number"/>
          <value value="453221"/>
        </identifier>
        <active value="true"/>
        <name>
          <family value="Mayo"/>
          <given value="Helen"/>
          <prefix value="Dr"/>
        </name>
        <telecom>
          <system value="email"/>
          <value value="helen.mayo@downunderhospital.example.com"/>
          <use value="work"/>
        </telecom>
        <address>
          <use value="work"/>
          <line value="3 McGregor Street"/>
          <city value="Blacktown"/>
          <state value="NSW"/>
          <postalCode value="2148"/>
          <country value="Australia"/>
        </address>
        <qualification>
          <identifier>
            <type>
              <coding>
                <system value="http://terminology.hl7.org.au/CodeSystem/v2-0203"/>
                <code value="AHPRA"/>
                <display
                  value="Australian Health Practitioner Regulation Agency Registration Number"/>
              </coding>
            </type>
            <system value="http://hl7.org.au/id/ahpra-registration-number"/>
            <value value="MED0000932945"/>
          </identifier>
          <code>
            <coding>
              <system value="http://www.abs.gov.au/ausstats/abs@.nsf/mf/1220.0"/>
              <code value="253111"/>
              <display value="General Practitioner"/>
            </coding>
            <text value="General Practitioner"/>
          </code>
          <issuer>
            <display value="AHPRA"/>
          </issuer>
        </qualification>
      </Practitioner>
    </resource>
  </entry>
  <entry>
    <fullUrl value="urn:uuid:b377cc18-4ea2-11e9-8647-d663bd873d93"/>
    <resource>
      <Organization xmlns="http://hl7.org/fhir">
        <id value="b377cc18-4ea2-11e9-8647-d663bd873d93"/>
        <text>
          <status value="generated"/>
          <div xmlns="http://www.w3.org/1999/xhtml">
            <p>
              <b>Generated Narrative with Details</b>
            </p>
            <p><b>id</b>: b377c682-4ea2-11e9-8647-d663bd873d93</p>
            <p><b>identifier</b>: HPI-O = 8003621566684455</p>
            <p><b>active</b>: true</p>
            <p><b>name</b>: Downunder Hospital</p>
            <p><b>address</b>: 3 McGregor Street Blacktown NSW 2148 Australia</p>
          </div>
        </text>
        <identifier>
          <type>
            <coding>
              <system value="http://terminology.hl7.org.au/CodeSystem/v2-0203"/>
              <code value="NOI"/>
              <display value="National Organisation Identifier"/>
            </coding>
          </type>
          <system value="http://ns.electronichealth.net.au/id/hi/hpio/1.0"/>
          <value value="8003627500000328"/>
        </identifier>
        <active value="true"/>
        <name value="Downunder Hospital"/>
        <address>
          <line value="3 McGregor Street"/>
          <city value="Blacktown"/>
          <state value="NSW"/>
          <postalCode value="2148"/>
          <country value="Australia"/>
        </address>
      </Organization>
    </resource>
  </entry>
  <entry>
    <fullUrl value="urn:uuid:e36cef42-4ea3-11e9-8647-d663bd873d93"/>
    <resource>
      <MedicationStatement>
        <id value="e36cef42-4ea3-11e9-8647-d663bd873d93"/>
        <text>
          <status value="extensions"/>
          <div xmlns="http://www.w3.org/1999/xhtml">
            <h2>Patient</h2>
            <table>
              <tbody>
                <tr>
                  <th>Name</th>
                  <td>Mr Nicholas Jones </td>
                </tr>
                <tr>
                  <th>DoB</th>
                  <td>8 January 1949 (70)</td>
                </tr>
                <tr>
                  <th>Gender</th>
                  <td>Male</td>
                </tr>
                <tr>
                  <th>Indigenous status</th>
                  <td>Neither Aboriginal nor Torres Strait Islander origin</td>
                </tr>
                <tr>
                  <th>IHI</th>
                  <td>8003608833357361</td>
                </tr>
                <tr>
                  <th>Address</th>
                  <td>4 Brisbane Street, Brisbane, QLD 4112, Australia</td>
                </tr>
              </tbody>
            </table>
            <h2>Medication</h2>
            <table border="1">
              <thead>
                <tr>
                  <th>Medicine</th>
                  <th>Brand name</th>
                  <th>Directions</th>
                  <th>Morn</th>
                  <th>Mid</th>
                  <th>Eve</th>
                  <th>Bed</th>
                  <th>Medicine purpose</th>
                  <th>Special instructions</th>
                </tr>
              </thead>
              <tbody>
                <tr>
                  <td>FLUOXETINE 20mg TABLETS</td>
                  <td>LOVAN, PROZAC, ZACTIN</td>
                  <td>Take HALF a tablet dispersed in water in the MORNING.</td>
                  <td>0.5</td>
                  <td/>
                  <td/>
                  <td/>
                  <td>For depression.</td>
                  <td/>
                </tr>
              </tbody>
            </table>
          </div>
        </text>
        <status value="active"/>
        <medicationCodeableConcept>
          <coding>
            <extension url="http://hl7.org.au/fhir/StructureDefinition/medication-type">
              <valueCoding>
                <system value="http://terminology.hl7.org.au/CodeSystem/medication-type"/>
                <code value="UPDSF"/>
                <display value="Unbranded product with strengths and form"/>
              </valueCoding>
            </extension>
            <system value="http://snomed.info/sct"/>
            <code value="844301000168106"/>
            <display value="fluoxetine 20 mg tablet"/>
          </coding>
          <coding>
            <extension url="http://hl7.org.au/fhir/StructureDefinition/medication-type">
              <valueCoding>
                <system value="http://terminology.hl7.org.au/CodeSystem/medication-type"/>
                <code value="BPD"/>
                <display value="Branded product with no strengths or form"/>
              </valueCoding>
            </extension>
            <system value="http://snomed.info/sct"/>
            <code value="2938011000036102"/>
          </coding>
          <coding>
            <extension url="http://hl7.org.au/fhir/StructureDefinition/medication-type">
              <valueCoding>
                <system value="http://terminology.hl7.org.au/CodeSystem/medication-type"/>
                <code value="BPD"/>
                <display value="Branded product with no strengths or form"/>
              </valueCoding>
            </extension>
            <system value="http://snomed.info/sct"/>
            <code value="2954011000036108"/>
          </coding>
          <coding>
            <extension url="http://hl7.org.au/fhir/StructureDefinition/medication-type">
              <valueCoding>
                <system value="http://terminology.hl7.org.au/CodeSystem/medication-type"/>
                <code value="BPD"/>
                <display value="Branded product with no strengths or form"/>
              </valueCoding>
            </extension>
            <system value="http://snomed.info/sct"/>
            <code value="2952011000036104"/>
          </coding>
          <text value="FLUOXETINE 20mg TABLETS, LOVAN,PROZAC,ZACTIN"/>
        </medicationCodeableConcept>
        <subject>
          <reference value="urn:uuid:f12d073e-4e99-11e9-8647-d663bd873d93"/>
        </subject>
        <reasonCode>
          <text value="Depression."/>
        </reasonCode>
        <dosage>
          <text value="Take HALF a tablet dispersed in water in the MORNING."/>
          <timing>
            <repeat>
              <frequency value="1"/>
              <period value="1"/>
              <periodUnit value="d"/>
              <when value="MORN"/>
            </repeat>
          </timing>
          <doseAndRate>
            <doseQuantity>
              <value value="0.5"/>
              <unit value="TAB"/>
              <system value="http://terminology.hl7.org/CodeSystem/v3-orderableDrugForm"/>
              <code value="TAB"/>
            </doseQuantity>
          </doseAndRate>
        </dosage>
      </MedicationStatement>
    </resource>
  </entry>

  <entry>
    <fullUrl value="urn:uuid:fbc87b14-4ea4-11e9-8647-d663bd873d93"/>
    <resource>
      <MedicationStatement>
        <id value="fbc87b14-4ea4-11e9-8647-d663bd873d93"/>
        <text>
          <status value="extensions"/>
          <div xmlns="http://www.w3.org/1999/xhtml">
            <h2>Patient</h2>
            <table>
              <tbody>
                <tr>
                  <th>Name</th>
                  <td>Mr Nicholas Jones </td>
                </tr>
                <tr>
                  <th>DoB</th>
                  <td>8 January 1949 (70)</td>
                </tr>
                <tr>
                  <th>Gender</th>
                  <td>Male</td>
                </tr>
                <tr>
                  <th>Indigenous status</th>
                  <td>Neither Aboriginal nor Torres Strait Islander origin</td>
                </tr>
                <tr>
                  <th>IHI</th>
                  <td>8003608833357361</td>
                </tr>
                <tr>
                  <th>Address</th>
                  <td>4 Brisbane Street, Brisbane, QLD 4112, Australia</td>
                </tr>
              </tbody>
            </table>
            <h2>Medication</h2>
            <table border="1">
              <thead>
                <tr>
                  <th>Medicine</th>
                  <th>Brand name</th>
                  <th>Directions</th>
                  <th>Morn</th>
                  <th>Mid</th>
                  <th>Eve</th>
                  <th>Bed</th>
                  <th>Medicine purpose</th>
                  <th>Special instructions</th>
                </tr>
              </thead>
              <tbody>
                <tr>
                  <td>ASPIRIN 100mg EC TABLET</td>
                  <td>CARTIA</td>
                  <td>Swallow whole ONE tablet in the MORNING WITH FOOD.</td>
                  <td>1</td>
                  <td/>
                  <td/>
                  <td/>
                  <td>To thin the blood to prevent heart attack or stroke.</td>
                  <td>Swallow whole after food. If develop swollen ankles, difficulty in breathing,
                    black stools or vomit that looks like coffee grounds, stop taking the medicine
                    and contact the doctor without delay. It may be advisable to stop taking aspirin
                    7 days before planed surgery and some dental procedure; discuss with your doctor
                    or dentist."</td>
                </tr>
              </tbody>
            </table>
          </div>
        </text>
        <status value="active"/>
        <medicationCodeableConcept>
          <coding>
            <extension url="http://hl7.org.au/fhir/StructureDefinition/medication-type">
              <valueCoding>
                <system value="http://terminology.hl7.org.au/CodeSystem/medication-type"/>
                <code value="UPDSF"/>
                <display value="Unbranded product with strengths and form"/>
              </valueCoding>
            </extension>
            <system value="http://snomed.info/sct"/>
            <code value="75561000036109"/>
            <display value="aspirin 100 mg enteric tablet"/>
          </coding>
          <coding>
            <extension url="http://hl7.org.au/fhir/StructureDefinition/medication-type">
              <valueCoding>
                <system value="http://terminology.hl7.org.au/CodeSystem/medication-type"/>
                <code value="BPD"/>
                <display value="Branded product with no strengths or form"/>
              </valueCoding>
            </extension>
            <system value="http://snomed.info/sct"/>
            <code value="3338011000036100"/>
            <display value="cartia"/>
          </coding>
          <text value="ASPIRIN 100mg EC TABLET, CARTIA"/>
        </medicationCodeableConcept>
        <subject>
          <reference value="urn:uuid:f12d073e-4e99-11e9-8647-d663bd873d93"/>
        </subject>
        <reasonCode>
          <text value="To thin the blood to prevent heart attack or stroke."/>
        </reasonCode>
        <dosage>
          <text value="Swallow whole ONE tablet in the MORNING WITH FOOD."/>
          <patientInstruction
            value="Swallow whole after food. If develop swollen ankles, difficulty in breathing, black stools or vomit that looks like coffee grounds, stop taking the medicine and contact the doctor without delay. It may be advisable to stop taking aspirin 7 days before planed surgery and some dental procedure; discuss with your doctor or dentist."/>
          <timing>
            <repeat>
              <frequency value="1"/>
              <periodUnit value="d"/>
              <when value="MORN"/>
            </repeat>
          </timing>
          <doseAndRate>
            <doseQuantity>
              <value value="1"/>
              <unit value="TAB"/>
              <system value="http://terminology.hl7.org/CodeSystem/v3-orderableDrugForm"/>
              <code value="TAB"/>
            </doseQuantity>
          </doseAndRate>
        </dosage>
      </MedicationStatement>
    </resource>
  </entry>
  <entry>
    <fullUrl value="urn:uuid:9b6194f8-4ea5-11e9-8647-d663bd873d93"/>
    <resource>
      <MedicationStatement>
        <id value="9b6194f8-4ea5-11e9-8647-d663bd873d93"/>
        <text>
          <status value="extensions"/>
          <div xmlns="http://www.w3.org/1999/xhtml">
            <h2>Patient</h2>
            <table>
              <tbody>
                <tr>
                  <th>Name</th>
                  <td>Mr Nicholas Jones </td>
                </tr>
                <tr>
                  <th>DoB</th>
                  <td>8 January 1949 (70)</td>
                </tr>
                <tr>
                  <th>Gender</th>
                  <td>Male</td>
                </tr>
                <tr>
                  <th>Indigenous status</th>
                  <td>Neither Aboriginal nor Torres Strait Islander origin</td>
                </tr>
                <tr>
                  <th>IHI</th>
                  <td>8003608833357361</td>
                </tr>
                <tr>
                  <th>Address</th>
                  <td>4 Brisbane Street, Brisbane, QLD 4112, Australia</td>
                </tr>
              </tbody>
            </table>
            <h2>Medication</h2>
            <table border="1">
              <thead>
                <tr>
                  <th>Medicine</th>
                  <th>Brand name</th>
                  <th>Directions</th>
                  <th>Morn</th>
                  <th>Mid</th>
                  <th>Eve</th>
                  <th>Bed</th>
                  <th>Medicine purpose</th>
                  <th>Special instructions</th>
                </tr>
              </thead>
              <tbody>
                <tr>
                  <td>TICAGRELOR 90mg TABLETS</td>
                  <td>BRILINTA</td>
                  <td>Take ONE tablet TWICE a day.</td>
                  <td>1</td>
                  <td/>
                  <td/>
                  <td>1</td>
                  <td>For angina or to keep the blood thin.</td>
                  <td>Do not take more than one aspirin tablet or capsule each day while being
                    treated with this medicine.</td>
                </tr>
              </tbody>
            </table>
          </div>
        </text>
        <status value="active"/>
        <medicationCodeableConcept>
          <coding>
            <extension url="http://hl7.org.au/fhir/StructureDefinition/medication-type">
              <valueCoding>
                <system value="http://terminology.hl7.org.au/CodeSystem/medication-type"/>
                <code value="UPDSF"/>
                <display value="Unbranded product with strengths and form"/>
              </valueCoding>
            </extension>
            <system value="http://snomed.info/sct"/>
            <code value="32641000036100"/>
            <display value="ticagrelor 90 mg tablet"/>
          </coding>
          <coding>
            <extension url="http://hl7.org.au/fhir/StructureDefinition/medication-type">
              <valueCoding>
                <system value="http://terminology.hl7.org.au/CodeSystem/medication-type"/>
                <code value="BPD"/>
                <display value="Branded product with no strengths or form"/>
              </valueCoding>
            </extension>
            <system value="http://snomed.info/sct"/>
            <code value="32101000036105"/>
            <display value="Brilinta"/>
          </coding>
          <text value="TICAGRELOR 90mg TABLETS, BRILINTA"/>
        </medicationCodeableConcept>
        <subject>
          <reference value="urn:uuid:f12d073e-4e99-11e9-8647-d663bd873d93"/>
        </subject>
        <reasonCode>
          <text value="For angina or to keep the blood thin."/>
        </reasonCode>
        <dosage>
          <text value="Take ONE tablet TWICE a day."/>
          <patientInstruction
            value="Do not take more than one aspirin tablet or capsule each day while being treated with this medicine."/>
          <timing>
            <repeat>
              <frequency value="2"/>
              <period value="1"/>
              <periodUnit value="d"/>
              <when value="MORN"/>
              <when value="HS"/>
            </repeat>
          </timing>
          <doseAndRate>
            <doseQuantity>
              <value value="1"/>
              <unit value="TAB"/>
              <system value="http://terminology.hl7.org/CodeSystem/v3-orderableDrugForm"/>
              <code value="TAB"/>
            </doseQuantity>
            </doseAndRate>
        </dosage>
      </MedicationStatement>
    </resource>
  </entry>
  <entry>
    <fullUrl value="urn:uuid:cede882c-4ea5-11e9-8647-d663bd873d93"/>
    <resource>
      <MedicationStatement>
        <id value="cede882c-4ea5-11e9-8647-d663bd873d93"/>
        <text>
          <status value="extensions"/>
          <div xmlns="http://www.w3.org/1999/xhtml">
            <h2>Patient</h2>
            <table>
              <tbody>
                <tr>
                  <th>Name</th>
                  <td>Mr Nicholas Jones </td>
                </tr>
                <tr>
                  <th>DoB</th>
                  <td>8 January 1949 (70)</td>
                </tr>
                <tr>
                  <th>Gender</th>
                  <td>Male</td>
                </tr>
                <tr>
                  <th>Indigenous status</th>
                  <td>Neither Aboriginal nor Torres Strait Islander origin</td>
                </tr>
                <tr>
                  <th>IHI</th>
                  <td>8003608833357361</td>
                </tr>
                <tr>
                  <th>Address</th>
                  <td>4 Brisbane Street, Brisbane, QLD 4112, Australia</td>
                </tr>
              </tbody>
            </table>
            <h2>Medication</h2>
            <table border="1">
              <thead>
                <tr>
                  <th>Medicine</th>
                  <th>Brand name</th>
                  <th>Directions</th>
                  <th>Morn</th>
                  <th>Mid</th>
                  <th>Eve</th>
                  <th>Bed</th>
                  <th>Medicine purpose</th>
                  <th>Special instructions</th>
                </tr>
              </thead>
              <tbody>
                <tr>
                  <td>OMEGA-3-ACID ETHYL ESTERS 1000mg CAPSULES</td>
                  <td>OMACOR</td>
                  <td>Take ONE capsule at NIGHT.</td>
                  <td/>
                  <td/>
                  <td/>
                  <td>1</td>
                  <td/>
                  <td/>
                </tr>
              </tbody>
            </table>
          </div>
        </text>
        <status value="active"/>
        <medicationCodeableConcept>
          <coding>
            <extension url="http://hl7.org.au/fhir/StructureDefinition/medication-type">
              <valueCoding>
                <system value="http://terminology.hl7.org.au/CodeSystem/medication-type"/>
                <code value="UPDSF"/>
                <display value="Unbranded product with strengths and form"/>
              </valueCoding>
            </extension>
            <system value="http://snomed.info/sct"/>
            <code value="931840011000036108"/>
            <display value="omega-3-acid ethyl esters-90 1 g capsule"/>
          </coding>
          <coding>
            <extension url="http://hl7.org.au/fhir/StructureDefinition/medication-type">
              <valueCoding>
                <system value="http://terminology.hl7.org.au/CodeSystem/medication-type"/>
                <code value="BPD"/>
                <display value="Branded product with no strengths or form"/>
              </valueCoding>
            </extension>
            <system value="http://snomed.info/sct"/>
            <code value="929850011000036100"/>
            <display value="Omacor"/>
          </coding>
          <text value="OMEGA-3-ACID ETHYL ESTERS 1000mg CAPSULES, OMACOR"/>
        </medicationCodeableConcept>
        <subject>
          <reference value="urn:uuid:f12d073e-4e99-11e9-8647-d663bd873d93"/>
        </subject>
       <dosage>
          <text value="Take ONE capsule at NIGHT."/>
          <timing>
            <repeat>
              <frequency value="1"/>
              <period value="1"/>
              <periodUnit value="d"/>
              <when value="HS"/>
            </repeat>
          </timing>
          <doseAndRate>
            <doseQuantity>
              <value value="1"/>
              <unit value="CAP"/>
              <system value="http://terminology.hl7.org/CodeSystem/v3-orderableDrugForm"/>
              <code value="CAP"/>
            </doseQuantity>
          </doseAndRate>
        </dosage>
      </MedicationStatement>
    </resource>
  </entry>
  <entry>
    <fullUrl value="urn:uuid:f0a81ae0-4ea5-11e9-8647-d663bd873d93"/>
    <resource>
      <MedicationStatement>
        <id value="f0a81ae0-4ea5-11e9-8647-d663bd873d93"/>
        <text>
          <status value="extensions"/>
          <div xmlns="http://www.w3.org/1999/xhtml">
            <h2>Patient</h2>
            <table>
              <tbody>
                <tr>
                  <th>Name</th>
                  <td>Mr Nicholas Jones </td>
                </tr>
                <tr>
                  <th>DoB</th>
                  <td>8 January 1949 (70)</td>
                </tr>
                <tr>
                  <th>Gender</th>
                  <td>Male</td>
                </tr>
                <tr>
                  <th>Indigenous status</th>
                  <td>Neither Aboriginal nor Torres Strait Islander origin</td>
                </tr>
                <tr>
                  <th>IHI</th>
                  <td>8003608833357361</td>
                </tr>
                <tr>
                  <th>Address</th>
                  <td>4 Brisbane Street, Brisbane, QLD 4112, Australia</td>
                </tr>
              </tbody>
            </table>
            <h2>Medication</h2>
            <table border="1">
              <thead>
                <tr>
                  <th>Medicine</th>
                  <th>Brand name</th>
                  <th>Directions</th>
                  <th>Morn</th>
                  <th>Mid</th>
                  <th>Eve</th>
                  <th>Bed</th>
                  <th>Medicine purpose</th>
                  <th>Special instructions</th>
                </tr>
              </thead>
              <tbody>
                <tr>
                  <td>NIFEDIPINE 30mg CONTROLLED RELEASE TABLETS</td>
                  <td>ADEFIN XL 30, ADALAT OROS, ADEFIN OROS, ADDOS XR 30, APO-NIFEDIPINE XR</td>
                  <td>Swallow whole ONE tablet at NIGHT.</td>
                  <td/>
                  <td/>
                  <td/>
                  <td>1</td>
                  <td/>
                  <td>Swallow whole with a glass of fluid, do not crush or chew the tablets. advised
                    by your doctor. This medicine may affect mental alertness and/or operate
                    machinery. Take regularly and do not miss doses. Do not stop taking suddenly
                    unless If affected do not drive or operate machinery. Avoid eating grapefruit or
                    drinking grapefruit juice while being treated with this medicine.</td>
                </tr>
              </tbody>
            </table>
          </div>
        </text>
        <status value="active"/>
        <medicationCodeableConcept>
          <coding>
            <extension url="http://hl7.org.au/fhir/StructureDefinition/medication-type">
              <valueCoding>
                <system value="http://terminology.hl7.org.au/CodeSystem/medication-type"/>
                <code value="UPDSF"/>
                <display value="Unbranded product with strengths and form"/>
              </valueCoding>
            </extension>
            <system value="http://snomed.info/sct"/>
            <code value="23369011000036100"/>
            <display value="nifedipine 30 mg modified release tablet"/>
          </coding>
          <coding>
            <extension url="http://hl7.org.au/fhir/StructureDefinition/medication-type">
              <valueCoding>
                <system value="http://terminology.hl7.org.au/CodeSystem/medication-type"/>
                <code value="BPDSF"/>
                <display value="Branded product with strengths and form"/>
              </valueCoding>
            </extension>
            <system value="http://snomed.info/sct"/>
            <code value="7270011000036102"/>
            <display value="Adefin XL 30 mg modified release tablet"/>
          </coding>
          <coding>
            <extension url="http://hl7.org.au/fhir/StructureDefinition/medication-type">
              <valueCoding>
                <system value="http://terminology.hl7.org.au/CodeSystem/medication-type"/>
                <code value="BPD"/>
                <display value="Branded product with no strengths or form"/>
              </valueCoding>
            </extension>
            <system value="http://snomed.info/sct"/>
            <code value="28961000168100"/>
            <display value="Adalat Oros"/>
          </coding>
          <coding>
            <extension url="http://hl7.org.au/fhir/StructureDefinition/medication-type">
              <valueCoding>
                <system value="http://terminology.hl7.org.au/CodeSystem/medication-type"/>
                <code value="BPD"/>
                <display value="Branded product with no strengths or form"/>
              </valueCoding>
            </extension>
            <system value="http://snomed.info/sct"/>
            <code value="30671000168101"/>
            <display value="Addos XR"/>
          </coding>
          <coding>
            <extension url="http://hl7.org.au/fhir/StructureDefinition/medication-type">
              <valueCoding>
                <system value="http://terminology.hl7.org.au/CodeSystem/medication-type"/>
                <code value="BPD"/>
                <display value="Branded product with no strengths or form"/>
              </valueCoding>
            </extension>
            <system value="http://snomed.info/sct"/>
            <code value="501000168108"/>
            <display value="Nifedipine XR (Apo)"/>
          </coding>
          <text value="NIFEDIPINE 30mg CONTROLLED RELEASE TABLETS, ADEFIN XL 30, ADALAT OROS, ADEFIN OROS, ADDOS XR 30, APO-NIFEDIPINE XR"/>
        </medicationCodeableConcept>
        <subject>
          <reference value="urn:uuid:f12d073e-4e99-11e9-8647-d663bd873d93"/>
        </subject>
        <dosage>
          <text value="Swallow whole ONE tablet at NIGHT."/>
          <patientInstruction
            value="Swallow whole with a glass of fluid, do not crush or chew the tablets. Take regularly and do not miss doses. Do not stop taking suddenly unless advised by your doctor. This medicine may affect mental alertness and/or operate machinery. If affected do not drive or operate machinery. Avoid eating grapefruit or drinking grapefruit juice while being treated with this medicine."/>
          <timing>
            <repeat>
              <frequency value="1"/>
              <period value="1"/>
              <periodUnit value="d"/>
              <when value="HS"/>
            </repeat>
          </timing>
          <doseAndRate>
            <doseQuantity>
              <value value="1"/>
              <unit value="TAB"/>
              <system value="http://terminology.hl7.org/CodeSystem/v3-orderableDrugForm"/>
              <code value="TAB"/>
            </doseQuantity>
          </doseAndRate>
        </dosage>
      </MedicationStatement>
    </resource>
  </entry>
  <entry>
    <fullUrl value="urn:uuid:2450a7ea-4ea6-11e9-8647-d663bd873d93"/>
    <resource>
      <MedicationStatement>
        <id value="2450a7ea-4ea6-11e9-8647-d663bd873d93"/>

        <text>
          <status value="extensions"/>
          <div xmlns="http://www.w3.org/1999/xhtml">
            <h2>Patient</h2>
            <table>
              <tbody>
                <tr>
                  <th>Name</th>
                  <td>Mr Nicholas Jones </td>
                </tr>
                <tr>
                  <th>DoB</th>
                  <td>8 January 1949 (70)</td>
                </tr>
                <tr>
                  <th>Gender</th>
                  <td>Male</td>
                </tr>
                <tr>
                  <th>Indigenous status</th>
                  <td>Neither Aboriginal nor Torres Strait Islander origin</td>
                </tr>
                <tr>
                  <th>IHI</th>
                  <td>8003608833357361</td>
                </tr>
                <tr>
                  <th>Address</th>
                  <td>4 Brisbane Street, Brisbane, QLD 4112, Australia</td>
                </tr>
              </tbody>
            </table>
            <h2>Medication</h2>
            <table border="1">
              <thead>
                <tr>
                  <th>Medicine</th>
                  <th>Brand name</th>
                  <th>Directions</th>
                  <th>Morn</th>
                  <th>Mid</th>
                  <th>Eve</th>
                  <th>Bed</th>
                  <th>Medicine purpose</th>
                  <th>Special instructions</th>
                </tr>
              </thead>
              <tbody>
                <tr>
                  <td>GLYCERIL TRINITRATE 600mcg (30) SUBLINGUAL TABLETS</td>
                  <td>ANGININE</td>
                  <td>Place ONE tablet under the tongue and allow to dissolve when needed for chest
                    pain. DISCARD CONTENTS THREE MONTHS AFTER OPENING.</td>
                  <td>When necessary.</td>
                  <td/>
                  <td/>
                  <td/>
                  <td>To relieve chest pain associated with angina.</td>
                  <td>Sit or lie down before use as it may cause dizziness. Get up gradually from
                    sitting or lying to minimise this effect. Place half to one tablet under the
                    tongue. Do not swallow it. After the pain has been relieved, spit out what is
                    left of the tablet to avoid adverse effects such as headache. It is important to
                    store these tablets properly or they may not work as well. Keep them in the
                    original glass bottle away from moisture, heat and light. Do not carry them
                    close to your body. Write the date on the bottle when you open it and discard
                    any unused tablets 3 months later (after that time, they will not be reliably
                    effective).</td>
                </tr>
              </tbody>
            </table>
          </div>
        </text>
        <status value="not-taken"/>
        <medicationCodeableConcept>
          <coding>
            <extension url="http://hl7.org.au/fhir/StructureDefinition/medication-type">
              <valueCoding>
                <system value="http://terminology.hl7.org.au/CodeSystem/medication-type"/>
                <code value="UPG"/>
                <display value="Unbranded package with no container"/>
              </valueCoding>
            </extension>
            <system value="http://snomed.info/sct"/>
            <code value="82521011000036105"/>
            <display value="glyceryl trinitrate 600 microgram sublingual tablet, 30"/>
          </coding>
          <coding>
            <extension url="http://hl7.org.au/fhir/StructureDefinition/medication-type">
              <valueCoding>
                <system value="http://terminology.hl7.org.au/CodeSystem/medication-type"/>
                <code value="BPD"/>
                <display value="Branded product with no strengths or form"/>
              </valueCoding>
            </extension>
            <system value="http://snomed.info/sct"/>
            <code value="3935011000036104"/>
            <display value="Anginine"/>
          </coding>
          <text value="GLYCERIL TRINITRATE 600mcg (30) SUBLINGUAL TABLETS, ANGININE"/>
        </medicationCodeableConcept>
        <subject>
          <reference value="urn:uuid:f12d073e-4e99-11e9-8647-d663bd873d93"/>
        </subject>
        <reasonCode>
          <text value="To relieve chest pain associated with angina."/>
        </reasonCode>
        <dosage>
          <text
            value="Place ONE tablet under the tongue and allow to dissolve when needed for chest pain. DISCARD CONTENTS THREE MONTHS AFTER OPENING."/>
          <patientInstruction
            value="Sit or lie down before use as it may cause dizziness. Get up gradually from sitting or lying to minimise this effect. Place half to one tablet under the tongue. Do not swallow it. After the pain has been relieved, spit out what is left of the tablet to avoid adverse effects such as headache. It is important to store these tablets properly or they may not work as well. Keep them in the original glass bottle away from moisture, heat and light. Do not carry them close to your body. Write the date on the bottle when you open it and discard any unused tablets 3 months later (after that time, they will not be reliably effective)."/>
          <timing>
            <repeat>
              <frequency value="1"/>
              <period value="1"/>
              <periodUnit value="d"/>
            </repeat>
          </timing>
          <asNeededBoolean value="true"/>
        </dosage>
      </MedicationStatement>
    </resource>
  </entry>
  <entry>
    <fullUrl value="urn:uuid:613a96e8-4ea6-11e9-8647-d663bd873d93"/>
    <resource>
      <MedicationStatement>
        <id value="613a96e8-4ea6-11e9-8647-d663bd873d93"/>
        <text>
          <status value="extensions"/>
          <div xmlns="http://www.w3.org/1999/xhtml">
            <h2>Patient</h2>
            <table>
              <tbody>
                <tr>
                  <th>Name</th>
                  <td>Mr Nicholas Jones </td>
                </tr>
                <tr>
                  <th>DoB</th>
                  <td>8 January 1949 (70)</td>
                </tr>
                <tr>
                  <th>Gender</th>
                  <td>Male</td>
                </tr>
                <tr>
                  <th>Indigenous status</th>
                  <td>Neither Aboriginal nor Torres Strait Islander origin</td>
                </tr>
                <tr>
                  <th>IHI</th>
                  <td>8003608833357361</td>
                </tr>
                <tr>
                  <th>Address</th>
                  <td>4 Brisbane Street, Brisbane, QLD 4112, Australia</td>
                </tr>
              </tbody>
            </table>
            <h2>Medication</h2>
            <table border="1">
              <thead>
                <tr>
                  <th>Medicine</th>
                  <th>Brand name</th>
                  <th>Directions</th>
                  <th>Morn</th>
                  <th>Mid</th>
                  <th>Eve</th>
                  <th>Bed</th>
                  <th>Medicine purpose</th>
                  <th>Special instructions</th>
                </tr>
              </thead>
              <tbody>
                <tr>
                  <td>ATORVASTATIN 80mg TABLETS</td>
                  <td>APO-ATORVASTATIN, LIPITOR, LORSTAT</td>
                  <td>Take ONE tablet at NIGHT.</td>
                  <td/>
                  <td/>
                  <td/>
                  <td>1</td>
                  <td>To lower cholesterol levels in the blood.</td>
                  <td>Avoid eating grapefruit or drinking grapefruit juice while being treated with
                    this medicine as this could increase the chances of side-effects occurring. Seek
                    medical advice promptly if your urine is dark (brown) or you have any muscle
                    pain, tenderness or weakness.</td>
                </tr>
              </tbody>
            </table>
          </div>
        </text>

        <status value="active"/>
        <medicationCodeableConcept>
          <coding>
            <extension url="http://hl7.org.au/fhir/StructureDefinition/medication-type">
              <valueCoding>
                <system value="http://terminology.hl7.org.au/CodeSystem/medication-type"/>
                <code value="UPDSF"/>
                <display value="Unbranded product with strengths and form"/>
              </valueCoding>
            </extension>
            <system value="http://snomed.info/sct"/>
            <code value="23165011000036107"/>
            <display value="atorvastatin 80 mg tablet"/>
          </coding>
          <coding>
            <extension url="http://hl7.org.au/fhir/StructureDefinition/medication-type">
              <valueCoding>
                <system value="http://terminology.hl7.org.au/CodeSystem/medication-type"/>
                <code value="BPD"/>
                <display value="Branded product with no strengths or form"/>
              </valueCoding>
            </extension>
            <system value="http://snomed.info/sct"/>
            <code value="8071000168101"/>
            <display value="Atorvastatin (Apo)"/>
          </coding>
          <coding>
            <extension url="http://hl7.org.au/fhir/StructureDefinition/medication-type">
              <valueCoding>
                <system value="http://terminology.hl7.org.au/CodeSystem/medication-type"/>
                <code value="BPD"/>
                <display value="Branded product with no strengths or form"/>
              </valueCoding>
            </extension>
            <system value="http://snomed.info/sct"/>
            <code value="3877011000036101"/>
            <display value="Lipitor"/>
          </coding>
          <coding>
            <extension url="http://hl7.org.au/fhir/StructureDefinition/medication-type">
              <valueCoding>
                <system value="http://terminology.hl7.org.au/CodeSystem/medication-type"/>
                <code value="BPD"/>
                <display value="Branded product with no strengths or form"/>
              </valueCoding>
            </extension>
            <system value="http://snomed.info/sct"/>
            <code value="3877011000036101"/>
            <display value="Lipitor"/>
          </coding>
          <coding>
            <extension url="http://hl7.org.au/fhir/StructureDefinition/medication-type">
              <valueCoding>
                <system value="http://terminology.hl7.org.au/CodeSystem/medication-type"/>
                <code value="BPD"/>
                <display value="Branded product with no strengths or form"/>
              </valueCoding>
            </extension>
            <system value="http://snomed.info/sct"/>
            <code value="19751000036109"/>
            <display value="Lorstat"/>
          </coding>
          <text value="ATORVASTATIN 80mg TABLETS, APO-ATORVASTATIN, LIPITOR, LORSTAT"/>
        </medicationCodeableConcept>
        <subject>
          <reference value="urn:uuid:f12d073e-4e99-11e9-8647-d663bd873d93"/>
        </subject>
       <reasonCode>
          <text value="To relieve chest pain associated with angina."/>
        </reasonCode>
        <dosage>
          <text value="Take ONE tablet at NIGHT."/>
          <patientInstruction
            value="Avoid eating grapefruit or drinking grapefruit juice while being treated with this medicine as this could increase the chances of side-effects occurring. Seek medical advice promptly if your urine is dark (brown) or you have any muscle pain, tenderness or weakness."/>
          <timing>
            <repeat>
              <frequency value="1"/>
              <period value="1"/>
              <periodUnit value="d"/>
              <when value="HS"/>
            </repeat>
          </timing>
          <doseAndRate>
            <doseQuantity>
              <value value="1"/>
              <unit value="TAB"/>
              <system value="http://terminology.hl7.org/CodeSystem/v3-orderableDrugForm"/>
              <code value="TAB"/>
            </doseQuantity>
          </doseAndRate>
        </dosage>
      </MedicationStatement>
    </resource>
  </entry>
  <entry>
    <fullUrl value="urn:uuid:91296398-4ea6-11e9-8647-d663bd873d93"/>
    <resource>
      <MedicationStatement>
        <id value="91296398-4ea6-11e9-8647-d663bd873d93"/>
        <text>
          <status value="extensions"/>
          <div xmlns="http://www.w3.org/1999/xhtml">
            <h2>Patient</h2>
            <table>
              <tbody>
                <tr>
                  <th>Name</th>
                  <td>Mr Nicholas Jones </td>
                </tr>
                <tr>
                  <th>DoB</th>
                  <td>8 January 1949 (70)</td>
                </tr>
                <tr>
                  <th>Gender</th>
                  <td>Male</td>
                </tr>
                <tr>
                  <th>Indigenous status</th>
                  <td>Neither Aboriginal nor Torres Strait Islander origin</td>
                </tr>
                <tr>
                  <th>IHI</th>
                  <td>8003608833357361</td>
                </tr>
                <tr>
                  <th>Address</th>
                  <td>4 Brisbane Street, Brisbane, QLD 4112, Australia</td>
                </tr>
              </tbody>
            </table>
            <h2>Medication</h2>
            <table border="1">
              <thead>
                <tr>
                  <th>Medicine</th>
                  <th>Brand name</th>
                  <th>Directions</th>
                  <th>Morn</th>
                  <th>Mid</th>
                  <th>Eve</th>
                  <th>Bed</th>
                  <th>Medicine purpose</th>
                  <th>Special instructions</th>
                </tr>
              </thead>
              <tbody>
                <tr>
                  <td>METOPROLOL 50mg TABLETS</td>
                  <td>MINAX 50, BETALOC</td>
                  <td>Take ONE tablet TWICE a day (Relabelled Medication).</td>
                  <td>1</td>
                  <td/>
                  <td/>
                  <td>1</td>
                  <td>For reducing blood pressure, angina or disturbances of heart rhythm.</td>
                  <td/>
                </tr>
              </tbody>
            </table>
          </div>
        </text>
        <status value="active"/>
        <medicationCodeableConcept>
          <coding>
            <extension url="http://hl7.org.au/fhir/StructureDefinition/medication-type">
              <valueCoding>
                <system value="http://terminology.hl7.org.au/CodeSystem/medication-type"/>
                <code value="UPDSF"/>
                <display value="Unbranded product with strengths and form"/>
              </valueCoding>
            </extension>
            <system value="http://snomed.info/sct"/>
            <code value="23221011000036102"/>
            <display value="metoprolol tartrate 50 mg tablet"/>
          </coding>
          <coding>
            <extension url="http://hl7.org.au/fhir/StructureDefinition/medication-type">
              <valueCoding>
                <system value="http://terminology.hl7.org.au/CodeSystem/medication-type"/>
                <code value="BPD"/>
                <display value="Branded product with no strengths or form"/>
              </valueCoding>
            </extension>
            <system value="http://snomed.info/sct"/>
            <code value="4275011000036101"/>
            <display value="Minax"/>
          </coding>
          <coding>
            <extension url="http://hl7.org.au/fhir/StructureDefinition/medication-type">
              <valueCoding>
                <system value="http://terminology.hl7.org.au/CodeSystem/medication-type"/>
                <code value="BPD"/>
                <display value="Branded product with no strengths or form"/>
              </valueCoding>
            </extension>
            <system value="http://snomed.info/sct"/>
            <code value="3906011000036103"/>
            <display value="Betaloc"/>
          </coding>
          <text value="METOPROLOL 50mg TABLETS, MINAX 50, BETALOC"/>
        </medicationCodeableConcept>
        <subject>
          <reference value="urn:uuid:f12d073e-4e99-11e9-8647-d663bd873d93"/>
        </subject>
        <reasonCode>
          <text value="For reducing blood pressure, angina or disturbances of heart rhythm."/>
        </reasonCode>
        <dosage>
          <text value="Take ONE tablet TWICE a day."/>
          <timing>
            <repeat>
              <frequency value="2"/>
              <period value="1"/>
              <periodUnit value="d"/>
              <when value="MORN"/>
              <when value="HS"/>
            </repeat>
          </timing>
          <doseAndRate>
            <doseQuantity>
              <value value="1"/>
              <unit value="TAB"/>
              <system value="http://terminology.hl7.org/CodeSystem/v3-orderableDrugForm"/>
              <code value="TAB"/>
            </doseQuantity>
            </doseAndRate>
        </dosage>
      </MedicationStatement>
    </resource>
  </entry>
</Bundle>
